Folder: pv_tomcat/examples

Note: README.md
# TOMCAT_TMY
Code to prepare TOMCAT input based on TMY files

File: MRT RAT data - TOMCAT example - All data.csv
Source #1 zenith(°),Wavelength (nm),Spectral intensity (W m-2 nm-1),Photon flux in WL bin (A cm-2),Reflected front total,Reflected front,Escaped front,Absorbed cell,Absorbed parasitic,Absorbed edge,Reflected rear total,Reflected rear,Escaped rear,Remainder,Absorbed Top interface #1,Absorbed Top layer #1 (Glass),Absorbed Top interface #2,Absorbed Top layer #2 (EVA),Absorbed Solar cell top (interface #3),Absorbed Solar cell bulk (layer #3),Absorbed Solar cell bottom (interface #4),Absorbed Bottom layer #4 (EVA),Absorbed Bottom interface #5,"   ",Cell EQE
0,300,0.00310151,3.75227e-07,0.080185,0.07,0.010185,0,0.919815,0,0,0,0,0,3.39228e-18,0.68594,0,0.233875,0,0,0,0,0," ",0
0,640,1.4425,0.000744603,0.0191352,0.0186013,0.000533927,0.973456,0.00740841,0,0,0,0,0,4.44051e-16,0.00570531,0,0.00170311,1.46449e-17,0.973456,0,0,0," ",0
0,980,0.6499,0.000513691,0.0319028,0.0233394,0.0085634,0.912805,0.0552676,0,0,0,0,2.44243e-05,1.33172e-15,0.0210781,0,0.000773565,-1.49213e-17,0.912805,0.0334159,0,0," ",0
0,1320,0.2888,0.000307468,0.36514,0.0355939,0.329546,3.96064e-06,0.634428,0,0,0,0,0.000428027,3.64746e-17,0.0474508,0,0.0101282,4.32567e-16,3.96064e-06,0.576849,0,0," ",0
0,1660,0.22095,0.000295822,0.374676,0.0344007,0.340275,2.84117e-09,0.624906,0,0,0,0,0.000418099,4.48574e-16,0.027942,0,0.0980795,6.53848e-17,2.84117e-09,0.498885,0,0," ",0
0,2000,0.043,6.93629e-05,0.392373,0.0508968,0.341476,2.41882e-09,0.607626,0,0,0,0,1.22365e-06,2.39536e-16,0.0246969,0,0.08121,4.28273e-17,2.41882e-09,0.501719,0,0," ",0
0,2340,0.050125,9.46018e-05,0.402701,0.0270762,0.375625,2.12709e-09,0.597298,0,0,0,0,6.09271e-07,9.7024e-16,0.0212606,0,0.0684997,2.12932e-16,2.12709e-09,0.507538,0,0," ",0
11,470,1.52054,0.000576401,0.0285665,0.0230639,0.00550264,0.95591,0.0151416,0,0,0,0,0.000381665,7.36752e-19,0.00406952,0,0.00374051,0.00733155,0.95591,0,0,0," ",0
11,810,1.01132,0.000660698,0.0250461,0.020182,0.00486414,0.958551,0.0164031,0,0,0,0,1.1897e-07,1.12327e-16,0.0156631,0,0.00074,2.15357e-16,0.958551,0,0,0," ",0
11,1150,0.18484,0.000171445,0.293987,0.0254942,0.268493,0.109654,0.596352,0,0,0,0,7.12473e-06,1.62392e-16,0.0453996,0,0.0190328,1.20284e-16,0.109654,0.53192,0,0," ",0
11,1490,0.151063,0.00018154,0.363397,0.0294665,0.33393,2.98638e-09,0.636601,0,0,0,0,1.70726e-06,2.35295e-16,0.0335178,0,0.0990659,1.16351e-16,2.98638e-09,0.504018,0,0," ",0
11,1830,0.000319029,4.7088e-07,0.396575,0.05,0.346575,2.53408e-09,0.603424,0,0,0,0,1.00889e-06,-2.58594e-17,0.0259711,0,0.0867346,2.95729e-16,2.53408e-09,0.490718,0,0," ",0
11,2170,0.0785056,0.000137401,0.386878,0.0344425,0.352435,2.33077e-09,0.613121,0,0,0,0,1.30904e-06,-9.70564e-18,0.0230434,0,0.0736492,3.27188e-16,2.33077e-09,0.516428,0,0," ",0
22,300,0.00287567,3.47904e-07,0.052491,0.0466667,0.00582437,0,0.947509,0,0,0,0,0,-2.23338e-16,0.702742,0,0.244767,0,0,0,0,0," ",0
22,640,1.33746,0.000690384,0.0212605,0.0205602,0.00070028,0.970712,0.00766346,0,0,0,0,0.000364408,-6.66077e-16,0.0058978,0,0.00176567,-8.87833e-17,0.970712,0,0,0," ",0
22,980,0.602577,0.000476286,0.0369066,0.0277979,0.00910869,0.908206,0.0548619,0,0,0,0,2.54076e-05,-1.21201e-18,0.0219874,0,0.000949091,-9.44019e-17,0.908206,0.0319254,0,0," ",0
22,1320,0.267771,0.00028508,0.383935,0.0324252,0.351509,3.75847e-06,0.615734,0,0,0,0,0.000327683,2.06193e-16,0.0472527,0,0.0108796,-2.45553e-16,3.75847e-06,0.557602,0,0," ",0
22,1660,0.204861,0.000274282,0.382818,0.0315482,0.35127,2.77778e-09,0.61718,0,0,0,0,1.6932e-06,-4.93798e-16,0.0283898,0,0.102199,6.27794e-17,2.77778e-09,0.486592,0,0," ",0
22,2000,0.0398689,6.43122e-05,0.374755,0.0328849,0.34187,2.52036e-09,0.625244,0,0,0,0,1.22183e-06,-4.56523e-16,0.0277765,0,0.0897069,6.79862e-17,2.52036e-09,0.50776,0,0," ",0
22,2340,0.0464751,8.77132e-05,0.402514,0.0234102,0.379104,2.04736e-09,0.597485,0,0,0,0,9.14512e-07,-2.82906e-16,0.0234367,0,0.0791706,6.04356e-17,2.04736e-09,0.494878,0,0," ",0
33,470,1.2991,0.000492459,0.032826,0.0294718,0.00335415,0.950671,0.0165005,0,0,0,0,2.24377e-06,4.3792e-16,0.00468434,0,0.00457511,0.00724104,0.950671,0,0,0," ",0
33,810,0.86404,0.000564479,0.0253808,0.0224247,0.00295616,0.955709,0.0184865,0,0,0,0,0.000423867,-4.4425e-16,0.0176283,0,0.000858226,-3.31802e-17,0.955709,0,0,0," ",0
33,1150,0.157922,0.000146477,0.300581,0.0309337,0.269647,0.104404,0.595006,0,0,0,0,9.36665e-06,-4.22317e-16,0.0503866,0,0.0214551,1.68005e-16,0.104404,0.523164,0,0," ",0
33,1490,0.129063,0.000155102,0.368393,0.0303001,0.338093,2.89648e-09,0.631605,0,0,0,0,2.35087e-06,-1.80907e-16,0.0350869,0,0.105461,1.88863e-16,2.89648e-09,0.491056,0,0," ",0
33,1830,0.000272568,4.02305e-07,0.417377,0.03,0.387377,2.34434e-09,0.582622,0,0,0,0,1.07701e-06,-1.41108e-16,0.0312094,0,0.105694,3.9753e-16,2.34434e-09,0.445718,0,0," ",0
33,2170,0.0670727,0.000117391,0.407679,0.0372767,0.370402,2.15642e-09,0.592319,0,0,0,0,1.63857e-06,-1.49001e-16,0.0257956,0,0.0838666,3.48916e-16,2.15642e-09,0.482657,0,0," ",0
44,300,0.00223104,2.69916e-07,0.0528174,0.0483333,0.00448405,0,0.947183,0,0,0,0,0,-4.41727e-16,0.730189,0,0.216994,0,0,0,0,0," ",0
44,640,1.03765,0.000535623,0.0294532,0.0284502,0.00100302,0.962106,0.00844061,0,0,0,0,3.04698e-11,-4.57347e-19,0.00649011,0,0.00195051,1.57357e-18,0.962106,0,0,0," ",0
44,980,0.467499,0.000369518,0.0374472,0.0301821,0.00726509,0.907133,0.0551858,0,0,0,0,0.000233551,-8.59251e-19,0.0255787,0,0.000958521,9.1009e-17,0.907133,0.0286487,0,0," ",0
44,1320,0.207745,0.000221174,0.377728,0.0473052,0.330423,3.78372e-06,0.622265,0,0,0,0,3.26782e-06,1.85052e-16,0.0522353,0,0.0110647,2.18125e-16,3.78372e-06,0.558964,0,0," ",0
44,1660,0.158938,0.000212797,0.386986,0.0412135,0.345773,2.76186e-09,0.61251,0,0,0,0,0.000503891,-1.9987e-16,0.0299045,0,0.103153,-1.6024e-16,2.76186e-09,0.479452,0,0," ",0
44,2000,0.0309316,4.98955e-05,0.415802,0.0436988,0.372103,2.20261e-09,0.584197,0,0,0,0,1.71097e-06,1.54605e-16,0.0273748,0,0.0891727,2.89417e-16,2.20261e-09,0.467649,0,0," ",0
44,2340,0.0360569,6.80508e-05,0.399457,0.038094,0.361363,2.08355e-09,0.600542,0,0,0,0,1.04007e-06,-9.4919e-19,0.0241247,0,0.0765018,1.65994e-16,2.08355e-09,0.499916,0,0," ",0
55,470,0.88847,0.000336798,0.0467023,0.0438585,0.00284372,0.936105,0.0171873,0,0,0,0,5.41007e-06,-4.43279e-16,0.00526271,0,0.00492443,0.00700021,0.936105,0,0,0," ",0
55,810,0.590927,0.000386054,0.0531304,0.0519131,0.00121731,0.927222,0.0196472,0,0,0,0,3.07065e-08,-1.01442e-17,0.01876,0,0.000887147,2.06384e-16,0.927222,0,0,0," ",0
55,1150,0.108004,0.000100177,0.301537,0.0513429,0.250195,0.1065,0.591947,0,0,0,0,1.50824e-05,-4.44203e-16,0.0519646,0,0.0216372,4.02218e-17,0.1065,0.518345,0,0," ",0
55,1490,0.0882677,0.000106076,0.382437,0.0637285,0.318708,2.68855e-09,0.616833,0,0,0,0,0.000730021,-2.0361e-16,0.0387531,0,0.114102,-1.82989e-16,2.68855e-09,0.463978,0,0," ",0
55,1830,0.000186412,2.75141e-07,0.375562,0.04,0.335562,2.68869e-09,0.624435,0,0,0,0,3.40726e-06,-4.2114e-17,0.0311239,0,0.0987072,2.28031e-16,2.68869e-09,0.494604,0,0," ",0
55,2170,0.0458718,8.0285e-05,0.415487,0.070153,0.345334,2.17028e-09,0.584511,0,0,0,0,2.27264e-06,-2.30828e-16,0.0261946,0,0.0835611,2.64583e-16,2.17028e-09,0.474755,0,0," ",0
66,300,0.0012615,1.52618e-07,0.125874,0.121667,0.00420716,0,0.874126,0,0,0,0,0,1.00017e-15,0.704369,0,0.169758,0,0,0,0,0," ",0
66,640,0.586718,0.000302857,0.0949795,0.0949795,0,0.896263,0.00875745,0,0,0,0,2.43216e-10,8.33097e-20,0.00673181,0,0.00202563,1.08539e-16,0.896263,0,0,0," ",0
66,980,0.264338,0.000208937,0.119045,0.113888,0.00515674,0.831028,0.049872,0,0,0,0,5.45002e-05,-2.2544e-16,0.0258638,0,0.000958222,-9.39359e-18,0.831028,0.02305,0,0," ",0
66,1320,0.117466,0.000125059,0.422224,0.119782,0.302442,3.56777e-06,0.577766,0,0,0,0,6.05539e-06,-4.30881e-16,0.0514441,0,0.0106803,5.60909e-16,3.56777e-06,0.515642,0,0," ",0
66,1660,0.0898685,0.000120322,0.42876,0.124061,0.304699,2.58452e-09,0.571236,0,0,0,0,4.23297e-06,2.06958e-17,0.0295144,0,0.101364,7.32032e-18,2.58452e-09,0.440357,0,0," ",0
66,2000,0.0174897,2.82125e-05,0.441555,0.108345,0.33321,2.15266e-09,0.558443,0,0,0,0,1.8663e-06,-4.20945e-16,0.026971,0,0.0849374,-9.41243e-17,2.15266e-09,0.446534,0,0," ",0
66,2340,0.0203877,3.8478e-05,0.435895,0.1202,0.315695,1.92309e-09,0.564102,0,0,0,0,2.71389e-06,-2.2289e-16,0.0243979,0,0.0786062,-2.99745e-17,1.92309e-09,0.461098,0,0," ",0
77,470,0.348449,0.000132089,0.264419,0.261838,0.00258105,0.721809,0.0137545,0,0,0,0,1.7845e-05,-4.48989e-16,0.00435397,0,0.00405453,0.00534605,0.721809,0,0,0," ",0
77,810,0.231756,0.000151407,0.272193,0.271237,0.000956591,0.71136,0.0164464,0,0,0,0,1.38338e-08,2.21656e-16,0.0157035,0,0.00074286,-1.75917e-16,0.71136,0,0,0," ",0
77,1150,0.0423583,3.92885e-05,0.456449,0.274699,0.18175,0.0827166,0.460801,0,0,0,0,3.34713e-05,-1.03137e-17,0.0440479,0,0.0181526,-9.57132e-17,0.0827166,0.3986,0,0," ",0
77,1490,0.0346177,4.1602e-05,0.533629,0.316318,0.217311,2.17358e-09,0.466361,0,0,0,0,1.01786e-05,-4.36754e-16,0.0292604,0,0.0853441,-2.32179e-16,2.17358e-09,0.351756,0,0," ",0
77,1830,7.31091e-05,1.07907e-07,0.48524,0.265,0.22024,2.16314e-09,0.514744,0,0,0,0,1.6415e-05,-1.74249e-18,0.0244869,0,0.0763808,1.95553e-17,2.16314e-09,0.413876,0,0," ",0
77,2170,0.0179905,3.1487e-05,0.55596,0.316083,0.239877,1.61386e-09,0.443297,0,0,0,0,0.000743556,-2.42794e-16,0.0205306,0,0.0644839,-7.17307e-18,1.61386e-09,0.358282,0,0," ",0
88,300,0.000108241,1.30952e-08,0.821,0.821,0,0,0.178995,0,0,0,0,5.16773e-06,2.22045e-16,0.149856,0,0.0291389,0,0,0,0,0," ",0
88,640,0.0503425,2.59863e-05,0.805095,0.804936,0.000158393,0.192892,0.00201323,0,0,0,0,8.60476e-09,-8.15885e-19,0.00154799,0,0.000465234,-2.15678e-17,0.192892,0,0,0," ",0
88,980,0.0226812,1.79275e-05,0.81065,0.810525,0.000125194,0.178182,0.0110284,0,0,0,0,0.000139842,2.20413e-16,0.00611687,0,0.000227546,-4.34444e-17,0.178182,0.00468403,0,0," ",0
88,1320,0.010079,1.07305e-05,0.871474,0.82889,0.0425833,7.95885e-07,0.12848,0,0,0,0,4.54081e-05,1.46035e-18,0.0117932,0,0.0023925,7.22238e-17,7.95885e-07,0.114295,0,0," ",0
88,1660,0.00771104,1.03241e-05,0.883416,0.835982,0.0474345,5.2035e-10,0.116549,0,0,0,0,3.42652e-05,3.52431e-18,0.00646146,0,0.0218551,2.83904e-17,5.2035e-10,0.0882328,0,0," ",0
88,2000,0.00150068,2.42073e-06,0.865066,0.812855,0.0522117,5.55157e-10,0.134873,0,0,0,0,6.06395e-05,2.32152e-16,0.00654714,0,0.0206734,1.53539e-17,5.55157e-10,0.107652,0,0," ",0
88,2340,0.00174934,3.30155e-06,0.887679,0.831155,0.0565236,3.76301e-10,0.112285,0,0,0,0,3.64657e-05,2.32565e-16,0.00486595,0,0.0149988,-3.04545e-17,3.76301e-10,0.09242,0,0," ",0
88,2500,0.000160538,1.61851e-07,0.901059,0.835,0.0660588,3.13289e-10,0.0989146,0,0,0,0,2.66083e-05,1.23147e-16,0.0060198,0,0.0213624,-2.64583e-17,3.13289e-10,0.0715324,0,0," ",0